<?xml version="1.0" encoding="UTF-8"?><EvidenceVariable xmlns="http://hl7.org/fhir">
  <id value="example-fatal-ICH-in-7-days"/>
  <meta>
    <security>
      <system value="http://terminology.hl7.org/CodeSystem/v3-ActReason"/>
      <code value="HTEST"/>
      <display value="test health data"/>
    </security>
  </meta>
  <text>
    <status value="generated"/><div xmlns="http://www.w3.org/1999/xhtml">
      
      <p>
        "Fatal Intracranial Hemorrhage Within Seven Days" is an outcome used in expressing what an Evidence is about.
      </p>
	
    </div>
  </text>
  <contained>
    <Group>
      <id value="Cohort-Definition"/>
      <title value="CohortDefinition: Fatal Intracranial Hemorrhage"/>
      <membership value="conceptual"/>
      <combinationMethod value="all-of"/>
      <characteristic>
        <code>
          <coding>
            <system value="http://snomed.info/sct"/>
            <code value="260905004"/>
            <display value="Condition"/>
          </coding>
        </code>
        <valueCodeableConcept>
          <coding>
            <system value="http://snomed.info/sct"/>
            <code value="1386000"/>
            <display value="Intracranial hemorrhage (disorder)"/>
          </coding>
        </valueCodeableConcept>
        <exclude value="false"/>
        <description value="intracranial hemorrhage"/>
      </characteristic>
      <characteristic>
        <code>
          <text value="resulting in"/>
        </code>
        <valueCodeableConcept>
          <coding>
            <system value="http://snomed.info/sct"/>
            <code value="419620001"/>
            <display value="Death (event)"/>
          </coding>
        </valueCodeableConcept>
        <exclude value="false"/>
        <description value="resulting in death"/>
      </characteristic>
    </Group>
  </contained>
  <contained>
    <Group>
      <id value="Definition-Group"/>
      <title value="VariableDefinition: Fatal Intracranial Hemorrhage Within Seven Days"/>
      <type value="person"/>
      <membership value="definitional"/>
      <characteristic>
        <code>
          <coding>
            <system value="http://snomed.info/sct"/>
            <code value="260905004"/>
            <display value="Condition"/>
          </coding>
        </code>
        <valueReference>
          <reference value="#Cohort-Definition"/>
        </valueReference>
        <exclude value="false"/>
        <description value="fatal intracranial hemorrhage within 7 days"/>
        <timing>
          <contextCode>
            <coding>
              <system value="http://hl7.org/fhir/evidence-variable-event"/>
              <code value="study-start"/>
              <display value="Study Start"/>
            </coding>
          </contextCode>
          <offsetDuration>
            <value value="7"/>
            <unit value="days"/>
            <system value="http://unitsofmeasure.org"/>
            <code value="d"/>
          </offsetDuration>
        </timing>
      </characteristic>
    </Group>
  </contained>
  <extension url="http://hl7.org/fhir/StructureDefinition/structuredefinition-wg">
    <valueCode value="cds"/>
  </extension>
  <name value="FatalIntracranialHemorrhageWithinSevenDays"/>
  <title value="Fatal Intracranial Hemorrhage Within Seven Days"/>
  <status value="draft"/>
  <publisher value="HL7 International / Clinical Decision Support"/>
  <contact>
    <telecom>
      <system value="url"/>
      <value value="http://www.hl7.org/Special/committees/dss"/>
    </telecom>
  </contact>
  <description value="Fatal Intracranial Hemorrhage Within Seven Days"/>
  <actual value="true"/>
  <definition>
    <reference>
      <reference value="#Definition-Group"/>
    </reference>
  </definition>
  <handling value="dichotomous"/>
</EvidenceVariable>