<?xml version="1.0" encoding="UTF-8"?><Bundle xmlns="http://hl7.org/fhir">
  <id value="920a46b7-045a-4773-82bd-8e90c3e15653"/>
  <meta>
    <security>
      <system value="http://terminology.hl7.org/CodeSystem/v3-ActReason"/>
      <code value="HTEST"/>
      <display value="test health data"/>
    </security>
  </meta>
  <type value="subscription-notification"/>
  <timestamp value="2020-04-17T10:24:13.1882432-05:00"/>
  <entry>
    <fullUrl value="urn:uuid:dae6bdbc-71ab-4043-b11e-59b52bda60ad"/>
    <resource>
      <SubscriptionStatus>
        <id value="dae6bdbc-71ab-4043-b11e-59b52bda60ad"/>
        <text>
          <status value="generated"/><div xmlns="http://www.w3.org/1999/xhtml"><p class="res-header-id"><b>Generated Narrative: SubscriptionStatus dae6bdbc-71ab-4043-b11e-59b52bda60ad</b></p><a name="dae6bdbc-71ab-4043-b11e-59b52bda60ad"> </a><a name="hcdae6bdbc-71ab-4043-b11e-59b52bda60ad"> </a><a name="dae6bdbc-71ab-4043-b11e-59b52bda60ad-en-US"> </a><p><b>status</b>: active</p><p><b>type</b>: event-notification</p><p><b>eventsSinceSubscriptionStart</b>: 2</p><blockquote><p><b>notificationEvent</b></p><p><b>eventNumber</b>: 2</p><p><b>focus</b>: <a href="broken-link.html">??</a></p><p><b>additionalContext</b>: <a href="broken-link.html">??</a></p><blockquote><p><b>relatedQuery</b></p><p><b>queryType</b>: [not stated] </p><p><b>query</b>: Patient?_id=ABC&amp;_include:iterate=Patient:link</p></blockquote><blockquote><p><b>relatedQuery</b></p><p><b>queryType</b>: [not stated] </p><p><b>query</b>: Patient/ABC$current-providers</p></blockquote></blockquote><p><b>subscription</b>: <a href="broken-link.html">??</a></p><p><b>topic</b>: <a href="broken-link.html">http://example.org/FHIR/R5/SubscriptionTopic/admission</a></p></div>
        </text>
        <status value="active"/>
        <type value="event-notification"/>
        <eventsSinceSubscriptionStart value="2"/>
        <notificationEvent>
          <eventNumber value="2"/>
          <focus>
            <reference value="http://example.org/FHIR/R5/Encounter/2"/>
          </focus>
          <additionalContext>
            <reference value="http://example.org/FHIR/R5/Patient/ABC"/>
          </additionalContext>
          <relatedQuery>
            <queryType/>
            <query value="Patient?_id=ABC&amp;_include:iterate=Patient:link"/>
          </relatedQuery>
          <relatedQuery>
            <queryType/>
            <query value="Patient/ABC$current-providers"/>
          </relatedQuery>
        </notificationEvent>
        <subscription>
          <reference value="http://example.org/FHIR/R5/Subscription/123"/>
        </subscription>
        <topic value="http://example.org/FHIR/R5/SubscriptionTopic/admission"/>
      </SubscriptionStatus>
    </resource>
  </entry>
  <entry>
    <fullUrl value="http://example.org/FHIR/R5/Encounter/2"/>
    <request>
      <method value="PUT"/>
      <url value="Encounter/2"/>
    </request>
    <response>
      <status value="201"/>
    </response>
  </entry>
  <entry>
    <fullUrl value="http://example.org/FHIR/R5/Patient/ABC"/>
    <request>
      <method value="GET"/>
      <url value="Patient/ABC"/>
    </request>
    <response>
      <status value="200"/>
    </response>
  </entry>
</Bundle>